Folder: Master_Course/XRF/data

Note: README.md
# Master_Course
 대학원생활간 배운것들을 정리하는 공간입니다.

## Mission
https://github.com/Teddy0315/Master_Course/blob/master/Mission/Mission_Submission.ipynb

## XRF_PCA
https://github.com/Teddy0315/Master_Course/blob/master/XRF/XRF_PCA_Biplot_Eval.ipynb

File: after_XRF.csv
,SiO2,Al2O3,Fe2O3,CaO,MgO,K2O,Na2O,TiO2,MnO,P2O5,Ig.Loss,cat,depth(m),porosity,permeability,sum,ALK,CIA,CWI,STI,SOC,Wp,WPI
0,52.86,15.69,8.09,8.42,5.96,1.48,3.71,1.16,0.17,0.22,1.87,화강편마암,4.8,19.0,4.58e-22,99.63,28.5164,53.5495,26.9096,0.729525,23.78,5169.08,18.1781
1,50.83,15.85,7.36,10.12,6.68,2.22,2.7,1.12,0.16,0.21,2.28,화강편마암,21.3,9.0,4e-22,99.53,45.122,51.3111,26.7357,0.723335,23.21,5506.79,20.0661
2,67.52,15.97,2.96,2.87,0.99,3.19,4.66,0.36,0.11,0.14,0.85,화강편마암,83.3,8.0,4e-22,99.62,40.6369,59.8351,20.2168,0.79424,18.93,5734.86,11.0231
3,52.44,15.7,8.63,8.29,6.51,1.35,3.61,1.23,0.18,0.23,1.34,화강편마암,141.0,12.0,4e-22,99.51,27.2177,54.2314,27.0325,0.72583,24.33,5050.48,18.8421
4,74.07,13.66,1.04,0.91,0.24,4.62,3.84,0.11,0.03,0.02,1.03,화강편마암,145.2,28,4e-22,99.57,54.6099,59.3139,15.9084,0.838594,14.7,6046.95,8.71154
5,67.52,15.31,1.95,1.88,0.49,4.44,5.46,0.26,0.05,0.1,2.18,화강편마암,204.5,90.0,4e-22,99.64,44.8485,56.5153,19.7712,0.804033,17.26,6995.02,10.3689
6,52.02,16.39,7.47,9.23,7.14,1.44,3.37,1.01,0.15,0.24,1.13,화강편마암,262.4,34.0,4e-22,99.59,29.9376,53.8613,26.107,0.726378,23.86,5189.62,20.4446
7,75.21,13.42,0.4,0.62,0.06,5.65,3.65,0.05,0.06,0.01,0.5,화강편마암,319.6,102.0,3.17e-18,99.63,60.7527,57.4979,14.4234,0.84591,13.82,6700.95,9.56996
8,62.97,16.81,4.29,3.28,1.23,3.2,5.23,0.46,0.09,0.27,1.74,화강편마암,321.5,22.0,4e-22,99.57,37.9597,58.9411,23.4006,0.772608,21.1,6153.81,11.4907
9,57.5,17.78,5.87,6.08,3.12,1.43,4.55,0.87,0.12,0.26,1.92,화강편마암,379.8,8.0,4e-22,99.5,23.913,59.5845,26.5729,0.736296,23.65,4959.24,13.642
10,73.16,13.38,1.17,1.06,0.21,5.48,3.44,0.18,0.03,0.07,1.39,화강편마암,443.4,54.0,3.62e-18,99.57,61.435,57.2774,16.1896,0.835883,14.55,6524.48,8.97227
11,54.22,16.84,7.72,6.25,4.42,2.26,4.3,1.12,0.17,0.23,2.01,화강편마암,503.1,34.0,3.51e-19,99.54,34.4512,56.796,27.818,0.726166,24.56,5649.11,15.6697
12,58.49,16.6,6.47,4.8,3.35,1.88,4.77,0.94,0.17,0.21,1.89,화강편마암,569.5,20.0,6.41e-20,99.57,28.2707,59.18,26.0119,0.746026,23.07,5287.65,13.2682
13,40.8,5.36,2.61,26.9,0.77,0.98,0.05,0.2,0.31,0.07,22.13,화강편마암,625.6,59.0,2.17e-21,100.18,95.1456,16.1009,30.2456,0.855662,7.97,4740.98,8.45886
14,57.13,17.75,7.94,1.71,1.51,2.81,5.07,1.41,0.06,0.51,3.78,화강편마암,685.0,130.0,3.31e-19,99.68,35.6599,64.9232,30.9791,0.719356,25.69,5557.21,7.67859
15,73.47,10.82,1.63,3.53,0.24,2.61,3.4,0.3,0.05,0.01,3.48,화강편마암,690.1,,3.8e-19,99.54,43.4276,53.1434,16.305,0.851066,12.45,4561.81,6.5625
16,72.25,13.92,1.58,1.35,0.25,4.02,3.87,0.21,0.03,0.05,2.0,화강편마암,743.2,73.0,4.52e-19,99.53,50.9506,60.1036,17.7936,0.827986,15.5,5648.06,7.68599
17,62.48,14.58,3.02,6.4,1.0,4.12,0.3,0.55,0.07,0.17,7.75,화강편마암,763.25,115,7.07e-19,100.44,93.2127,57.4016,25.7865,0.786734,17.6,4492.83,4.40238
18,57.61,16.1,5.0,6.32,2.65,2.83,4.93,0.68,0.15,0.15,3.1,화강편마암,822.3,50.0,2.72e-20,99.52,36.4691,53.3466,25.0,0.756601,21.1,6278.44,14.1802
19,64.54,16.16,1.49,7.04,0.64,1.15,5.75,0.37,0.05,0.13,2.32,화강편마암,882.7,72.0,3.6e-18,99.64,16.6667,53.6877,20.4135,0.785371,17.65,5282.54,12.621
20,71.71,12.84,3.08,2.76,1.61,2.65,2.76,0.48,0.04,0.11,1.57,화강편마암,944.9,46.0,3.11e-19,99.61,48.9834,61.1138,18.0404,0.822073,15.92,4270.32,8.38696
21,71.5,15.22,1.91,3.09,0.58,2.66,3.59,0.26,0.04,0.09,0.62,화강암,30.3,32.0,5.95e-21,99.56,42.56,61.9707,18.0896,0.813041,17.13,4685.3,9.412
22,70.75,15.28,1.83,2.87,0.53,3.44,3.31,0.25,0.04,0.09,1.1,화강암,77.9,33.0,5.35e-20,99.49,50.963,61.3655,18.5546,0.811469,17.11,5112.32,9.21026
23,70.74,15.4,2.02,3.19,0.58,2.74,3.5,0.27,0.04,0.1,0.95,화강암,131.0,21.0,3.51e-21,99.53,43.9103,62.0217,18.728,0.809565,17.42,4712.16,9.20358
24,71.05,15.11,1.98,2.91,0.56,2.98,3.51,0.25,0.04,0.1,1.11,화강암,191.9,19.0,4e-22,99.6,45.9168,61.6483,18.5241,0.813529,17.09,4867.65,8.99847
25,70.81,15.08,1.89,2.8,0.56,3.6,3.35,0.26,0.05,0.09,1.02,화강암,227.2,34.0,6.45e-21,99.51,51.7986,60.733,18.3399,0.812872,16.97,5256.51,9.44586
26,72.34,14.94,1.5,2.11,0.27,3.53,3.86,0.15,0.05,0.04,0.78,화강암,255.5,38.0,1.39e-21,99.57,47.7673,61.1293,17.445,0.821987,16.44,5361.14,9.10841
27,73.66,13.48,0.95,1.61,0.19,3.71,3.45,0.12,0.05,0.03,2.4,화강암,290.0,33.0,4e-22,99.65,51.8156,60.5843,17.0095,0.838993,14.43,5190.54,6.75105
28,71.87,14.46,1.01,1.54,0.22,4.67,3.07,0.11,0.07,0.04,2.55,화강암,337.7,33.0,4e-22,99.61,60.3359,60.9099,18.201,0.827264,15.47,5734.73,7.16864
29,74.25,13.8,0.75,1.14,0.1,5.04,3.43,0.09,0.03,0.01,0.95,화강암,376.9,35.0,2.99e-19,99.59,59.5041,58.9492,15.6542,0.838659,14.55,6165.97,8.88438
30,73.6,14.52,1.19,2.13,0.23,3.55,3.59,0.12,0.04,0.04,0.54,화강암,425.3,54.0,3.93e-19,99.55,49.7199,61.034,16.444,0.829499,15.71,5221.27,9.05691
31,60.84,18.83,2.22,4.71,0.46,2.22,7.39,0.44,0.1,0.13,2.26,화강암,478.3,78.0,4.89e-21,99.6,23.1009,56.8024,23.8454,0.750262,21.05,6722.83,12.8926
32,72.41,14.41,1.81,1.75,0.42,4.04,3.37,0.27,0.06,0.09,0.9,화강암,527.3,56,3.11e-19,99.53,54.5209,61.137,17.4721,0.821192,16.22,5454.38,8.81397
33,71.44,15.2,1.88,2.68,0.51,2.51,3.86,0.24,0.05,0.09,1.07,화강암,575.0,66.0,7.13e-20,99.53,39.4035,62.6804,18.4768,0.813964,17.08,4653.24,8.63507
34,70.59,15.5,2.19,3.15,0.67,2.42,3.89,0.23,0.06,0.1,0.79,화강암,628.2,59.0,6.93e-21,99.59,38.3518,62.0994,18.787,0.810099,17.69,4683.3,9.46878
35,69.91,15.77,2.06,0.66,0.37,4.71,3.29,0.22,0.06,0.08,2.48,화강암,675.3,74.0,1.69e-21,99.61,58.875,64.5518,20.6104,0.80676,17.83,5783.4,6.75327
36,74.03,13.95,1.07,1.36,0.21,4.31,3.32,0.13,0.04,0.06,1.09,화강암,688.5,56,1.26e-19,99.57,56.4875,60.8108,16.3101,0.834895,15.02,5562.76,8.24355
37,71.34,15.06,1.92,2.97,0.57,2.76,3.42,0.22,0.06,0.11,1.11,화강암,792.8,37.0,1.63e-19,99.54,44.6602,62.2057,18.3946,0.815854,16.98,4649.9,8.76247
38,70.29,15.5,2.3,3.19,0.71,3.35,3.22,0.25,0.08,0.11,0.54,화강암,829.5,35.0,2.58e-19,99.54,50.9893,61.3618,18.6759,0.80864,17.8,5054.6,10.0496
39,73.11,14.07,1.4,1.66,0.29,4.4,3.37,0.16,0.05,0.04,1.04,화강암,889.3,103.0,7.87e-19,99.59,56.6281,59.8723,16.7386,0.830688,15.47,5715.08,8.81576
40,74.23,14.26,1.06,1.55,0.19,3.56,3.84,0.13,0.06,0.03,0.63,화강암,928.0,52.0,6.58e-20,99.54,48.1081,61.439,16.1543,0.832486,15.32,5284.83,8.61162
41,71.86,14.76,1.52,2.12,0.42,3.2,3.66,0.19,0.06,0.08,1.73,화강암,982.2,47.0,2.75e-19,99.6,46.6472,62.1735,18.2731,0.820835,16.28,5000.95,7.84815